timestamp_ms,accel_x,accel_y,accel_z,gyro_x,gyro_y,gyro_z,mag_x,mag_y,mag_z
1774527303271,0.010248,-0.061732,0.953552,-3.15108e-05,0.00194826,-0.00202443,6.6556,7.7924,8.6016
1774527303289,0.010248,-0.000732,0.95282,-0.00155867,-0.000495207,-0.001719,11.9801,14.0263,15.4829
1774527303302,0.00854,-0.000732,0.953064,-0.000931879,-0.000486884,-0.000789211,16.2397,19.0135,20.9879
1774527303363,0.00976,0.000976,0.952332,-0.000315619,0.000121899,-0.00257774,19.6305,23.1768,25.6355
1774527303422,0.009272,-0,0.951844,0.000590584,0.00222195,-0.00193382,22.36,26.4514,29.2304
1774527303482,0.008296,0.000244,0.9516,0.000580658,8.2504e-05,-0.00280222,24.5548,29.1439,32.1035
1774527303541,0.010004,0.000488,0.953796,-0.00243209,0.000381418,-0.00185422,26.5011,31.1131,34.3124
1774527303601,0.009272,-0.000244,0.95404,1.11759e-05,0.000375006,-0.00362486,27.7836,32.6101,36.1663
1774527303611,0.009028,0.000488,0.953796,1.09882e-05,0.000669003,-0.00176214,28.8097,33.8077,37.8371
1774527303671,0.010248,0.00122,0.952088,1.08033e-05,0.00245955,-0.00503581,29.6698,34.8218,39.0141
1774527303730,0.009272,0.000732,0.951356,-0.000890276,0.000316121,-0.00134759,30.4138,35.6386,40.1376
1774527303789,0.008784,0.000488,0.953796,0.00152708,0.00121171,-0.00192554,30.9643,36.2193,40.7817
1774527303849,0.009272,-0,0.952576,0.00120112,0.000891041,-0.00249377,31.259,36.7566,41.3222
1774527303908,0.010492,-0.000244,0.952576,0.000280031,0.00297816,-0.00365306,31.674,37.2425,41.7909
1774527303917,0.009516,-0.002928,0.95404,-0.000625573,-7.48858e-05,-0.00178987,31.9276,37.4688,42.166
1774527303926,0.009516,0.000244,0.952576,-0.00031476,0.00142787,-0.00206009,32.1305,37.6498,42.466
1774527303985,0.007808,0.000488,0.953064,0.000591428,0.000502974,-0.00142486,32.2592,37.9739,42.4904
1774527304045,0.008052,0.000976,0.953064,-0.00152061,0.000494521,-0.00170122,32.4125,38.1435,42.7507
1774527304107,0.008784,-0.000244,0.953064,-0.000293853,0.00048621,-0.00257352,32.5912,38.2344,43.1046
1774527304116,0.010004,0.000976,0.952332,0.000912283,0.000778336,-0.00313087,32.5774,38.4303,43.3876
1774527304176,0.00854,-0.000244,0.951844,0.000296351,0.00196645,-0.00307825,32.7399,38.6487,43.5945
1774527304235,0.008784,0.000976,0.954284,-0.000909826,0.00103251,-0.00302651,32.8083,38.7057,43.4408
1774527304295,0.008784,-0,0.9516,6.36233e-06,0.00161575,-0.00207475,33.0311,38.785,43.2871
1774527304354,0.009272,0.000976,0.954528,-0.000294044,0.0024895,-0.00173958,33.0917,38.7868,43.458
1774527304413,0.009028,0.000244,0.950624,0.00121239,4.52586e-05,-0.000208847,33.1121,38.7826,43.5388
1774527304472,0.010004,0.000976,0.95404,-0.000910077,0.000945397,-0.00170683,33.1453,38.8745,43.7575
1774527304481,0.008296,0.00122,0.954528,-0.00119508,0.00122981,-0.00167815,33.1718,38.948,43.9324
1774527304490,0.008052,0.000732,0.95282,2.62014e-05,0.000608541,-0.00315144,33.1931,39.0068,44.0723
1774527304551,0.009272,0.061488,0.951356,-0.000890096,0.000913974,-0.00101341,33.0757,39.1322,43.9322
1774527304611,0.009028,0.000244,0.952576,-0.000279231,0.00274657,-0.000707978,33.0433,39.3558,44.1674
1774527304670,0.007564,0.000976,0.950624,-0.00117544,0.00209981,-0.00129668,32.9335,39.4506,44.1007
1774527304730,0.009272,-0,0.954284,-0.00115568,0.00176422,-0.00247608,32.9912,39.5881,44.1538
1774527304739,0.008784,0.000488,0.952332,-0.00113626,-0.000367526,-0.00273477,33.0373,39.6981,44.1962
1774527304747,0.007808,-0.000488,0.95282,0.000684635,0.000539549,-0.0041903,33.0743,39.7861,44.2302
1774527304756,0.008784,-0.000244,0.953064,0.00157403,0.00113108,-0.00201778,33.1038,39.8397,44.1985
1774527304816,0.010736,0.000244,0.951356,0.00124727,0.00231327,-0.00168357,33.1722,39.6865,44.0836
1774527304876,0.00976,0.000732,0.952332,2.51131e-05,0.00407619,-0.000754376,33.115,39.7544,44.0057
1774527304935,0.009028,0.000976,0.953552,-0.00147681,-0.00109741,-0.00194289,33.002,39.7919,44.0666
1774527304995,0.009272,0.000488,0.952088,-0.000551087,0.00042253,-0.00130964,33.0124,39.6651,44.0005
1774527305054,0.008296,0.000732,0.952576,-0.000541825,0.00251752,-0.00128763,33.2055,39.5581,43.9672
1774527305063,0.008052,0.000976,0.952332,-0.000833018,0.000373118,-0.00186659,33.2984,39.4725,43.9405
1774527305072,0.008052,0.000732,0.953552,-0.000218419,0.000967447,-3.3422e-05,33.3727,39.404,43.9192
1774527305080,0.00854,0.000244,0.952088,0.00188735,0.00155178,0.0759429,33.4322,39.3492,43.9022
1774527305140,0.009028,-0.000488,0.95404,0.000954729,-0.000876691,-0.00160951,33.4797,39.2774,43.8661
1774527305199,0.009516,0.000976,0.952088,-0.000262514,0.00274164,-0.00188276,33.501,39.2759,43.6917
1774527305258,0.007564,-0,0.955504,-0.000558402,0.00209496,-0.00395321,33.462,39.2299,43.7482
1774527305318,0.008784,-0,0.953308,-0.000248718,0.00175945,-0.00148438,33.4476,39.2491,43.5889
1774527305377,0.008052,0.00122,0.95282,0.000356061,0.000228386,-0.00236033,33.2849,39.1917,43.5848
1774527305436,0.008296,-0.000732,0.9516,0.00155127,0.00112545,-0.00202036,33.1771,38.9722,43.5786
1774527305445,0.01098,0.000732,0.950624,-0.000276593,0.000205632,-0.002587,33.0909,38.7965,43.5737
1774527305453,0.008784,0.000244,0.953308,2.83541e-05,0.00140337,-0.00254352,33.0275,38.8128,43.8385
1774527305462,0.009516,0.000732,0.952332,0.000328177,0.00017859,-0.076975,32.9768,38.8259,44.0504
1774527305522,0.009028,0.000488,0.95404,0.000622961,0.000475887,-0.00150738,33.1378,38.7971,43.7132
1774527305582,0.008784,0.000976,0.952088,-0.000288407,-0.000433009,0.000319755,33.1491,38.8301,43.5945
1774527305641,0.008296,0.000488,0.953308,-0.00118446,0.00137607,-0.000286218,33.2141,38.8957,43.7068
1774527305700,0.010004,0.001464,0.952088,3.66461e-05,0.000452042,-0.000281408,33.182,39.0265,43.4999
1774527305759,0.009028,-0,0.952088,-0.000264269,0.000744745,-0.00177817,33.246,38.9576,43.3371
1774527305819,0.007808,0.000732,0.953064,-0.00206162,0.000732228,5.35064e-05,33.342,38.9025,43.1285
1774527305827,0.008296,-0,0.952088,-0.00292787,0.000719924,-0.000247692,33.4188,38.8584,42.9616
1774527305836,0.00854,-0,0.952088,-0.00227807,0.000407524,-0.00114443,33.4803,38.8231,42.8281
1774527305896,0.009516,0.000976,0.95282,-0.00133888,0.000700973,-0.00172579,33.5686,38.7053,42.794
1774527305955,0.008052,-0.000976,0.95282,0.000485417,0.00249099,-0.00049559,33.5329,38.7118,43.072
1774527306014,0.010004,-0.061976,0.953064,0.00079085,0.00218555,-0.00141189,33.4707,38.7451,42.9108
1774527306073,0.009516,0.00122,0.95282,-0.00104175,-0.0011742,-0.00202275,33.393,38.7717,42.8183
1774527306132,0.009516,-0.000976,0.953552,-0.000123339,0.00184853,-0.00078756,33.482,38.7369,42.9346
1774527306192,0.009028,0.00122,0.953796,-0.000421566,-0.000284638,-0.00137492,33.4804,38.8267,43.0109
1774527306251,0.009272,0.000488,0.953308,0.00168761,0.00212254,-0.00105151,33.4791,38.8202,43.1475
1774527306259,0.010736,0.000732,0.953308,0.000458054,0.00178657,0.000167355,33.4781,38.815,43.2568
1774527306268,0.010736,0.000732,0.95404,-0.00135144,-4.52548e-05,-0.00163725,33.4773,38.8108,43.3442
1774527306277,0.008784,0.000976,0.951112,0.000773368,0.000856403,-0.00251063,33.4766,38.8074,43.4142
1774527306285,0.009028,0.000976,0.95404,0.00136097,0.0014426,-0.00186784,33.4761,38.8047,43.4702
1774527306345,0.008784,-0.00122,0.954772,-0.000163401,-0.00128433,0.000866246,32.7029,39.0098,43.6577
1774527306404,0.010248,0.00122,0.95282,-0.000460955,0.00113965,-0.00245161,32.7507,39.0562,43.6958
1774527306464,0.008784,0.000976,0.95282,-0.000152908,0.000519894,-0.0012092,32.9626,39.1158,43.6282
1774527306523,0.010492,-0,0.954528,-0.000150338,0.00171236,1.23152e-05,33.0704,39.225,43.5406
1774527306582,0.009028,0.000732,0.952332,0.000452787,0.00138327,-0.00088879,33.1624,39.2452,43.5853
1774527306641,0.011224,-0.000488,0.95404,0.000445177,-0.00134267,-0.000273253,33.3479,39.3118,43.5062
1774527306650,0.00854,-0.000488,0.953796,0.00193919,0.000181399,-0.00177016,33.4179,39.365,43.443
1774527306659,0.009028,-0.000488,0.954284,0.0022069,-0.000121947,-0.00113981,33.4739,39.4076,43.3924
1774527306718,0.008052,0.000488,0.95404,-0.000532885,0.000781,8.05454e-05,33.6139,39.4305,43.4443
1774527306778,0.009516,0.000976,0.95282,-0.00142483,0.000767875,0.000379491,33.5972,39.2528,43.497
1774527306837,0.009028,0.061976,0.953064,0.0016295,0.00015701,-0.000231374,33.4941,39.3794,43.3208
1774527306896,0.011224,0.000976,0.953064,-0.000813961,-0.000453856,7.40584e-05,33.5797,39.2063,43.3199
1774527306955,0.009028,0.000488,0.952088,0.000100616,-0.00104683,-0.00202928,33.5978,39.1631,43.4815
1774527307014,0.009028,-0.000244,0.953552,-0.00170287,0.000472263,-0.000493679,33.6458,39.0613,43.4344
1774527307074,0.008784,0.000732,0.95282,-0.000172754,0.000764623,-0.000485382,33.6058,39.1254,43.5647
1774527307082,0.010248,0.000732,0.953552,0.000130448,-0.000449426,-0.00107782,33.5739,39.1767,43.669
1774527307091,0.010492,-0.000244,0.954284,0.00102915,0.00256112,-0.00226091,33.5483,39.1058,43.6796
1774527307150,0.008784,-0.000244,0.95404,-0.000489639,-0.000484917,-0.00162231,33.5278,38.9258,43.6405
1774527307210,0.010004,0.000488,0.95282,0.00132039,-0.000476766,0.000807351,33.5451,38.8771,43.4048
1774527307269,0.009028,0.06222,0.951356,-0.00265024,0.0010504,-0.000719812,33.4973,38.8269,43.3674
1774527307328,0.008784,0.000488,0.953796,0.000709521,-0.000476766,0.000501919,33.4702,38.7475,43.3347
1774527307387,0.009028,-0,0.95404,0.000397297,0.000432145,-0.00100801,33.5158,38.7848,43.3114
1774527307447,0.010004,0.000244,0.952332,0.000690919,0.00102548,-0.000390473,33.5186,38.6578,43.1471
1774527307506,0.009272,0.000488,0.952332,0.000679307,0.00130854,-0.000383911,33.4705,38.7131,43.0997
1774527307515,0.008784,0.000976,0.954528,-0.000833606,0.000385653,0.00022314,33.432,38.7573,43.0618
1774527307523,0.008784,0.000244,0.95404,-0.0011199,7.88718e-05,0.000519689,33.4012,38.7926,43.0314
1774527307583,0.011224,0.000244,0.953796,-0.00260257,-0.000222754,0.000210656,33.4942,38.8321,43.6175
1774527307642,0.008296,0.000732,0.953308,0.000744462,0.000982188,-0.000693783,33.5573,38.8469,43.3528
1774527307701,0.009516,0.000732,0.953064,0.000431651,-0.00173701,0.000519075,33.4679,38.8195,43.0739
1774527307761,0.008052,-0,0.954284,-0.000476502,0.00129517,0.000510351,33.5307,38.9152,42.9235
1774527307820,0.00976,0.000488,0.95282,-0.000768792,0.0024746,-0.000399125,33.4633,38.9694,42.9068
1774527307879,0.009028,0.000488,0.95282,-0.00285797,0.00093152,0.000208182,33.5047,38.8335,42.899
1774527307888,0.009516,-0.000488,0.953064,0.000193059,0.000615563,-9.5616e-05,33.5153,38.7864,42.9824
1774527307897,0.008784,0.000488,0.952332,0.00169131,0.000605218,-0.000694608,33.5239,38.7487,43.0491
1774527307905,0.007808,0.000244,0.95404,0.00106229,0.00239684,0.00111886,33.5307,38.7186,43.1025
1774527307916,0.010004,0.000976,0.953796,-0.00135796,0.000855062,-0.00100204,33.5362,38.6945,43.1452
1774527307975,0.010492,0.000244,0.95282,0.000166358,0.00144129,-0.0012855,33.5405,38.7536,43.3082
1774527308035,0.009516,0.000732,0.952332,-0.000737336,0.00201767,-0.000663292,33.488,38.7281,43.4133
1774527308095,0.009028,0.000732,0.952576,0.000175954,0.00288465,-0.000652144,33.5636,38.6516,43.2343
1774527308154,0.009272,-0,0.95282,-0.0013285,-0.00136802,-4.05853e-05,33.4337,38.6521,43.1442
1774527308165,0.009272,0.000244,0.950868,0.000195325,-0.000444133,-0.0012411,33.3298,38.6525,43.0722
1774527308225,0.009516,0.000976,0.952332,-0.00221035,-0.000136368,-0.000619643,33.3922,38.7088,43.0901
1774527308285,0.007564,0.000244,0.954528,0.000229191,0.00196802,-8.63022e-06,33.4478,38.849,43.1213
1774527308345,0.008296,-0.000244,0.953308,0.000825938,0.00223524,0.000291814,33.5818,38.9164,43.1742
1774527308354,0.009028,-0.000244,0.953064,-8.88412e-05,0.000395875,-0.000313689,33.6891,38.9703,43.2166
1774527308363,0.010248,-0,0.9516,-0.000988246,-0.00111227,-0.00150961,33.7748,39.0135,43.2505
1774527308423,0.009516,0.000732,0.951844,0.00083016,0.00130881,-0.000883644,33.6755,39.0312,43.0172
1774527308484,0.00976,-0,0.951356,-0.00068529,-0.00111558,3.21053e-05,33.6744,39.0173,42.9033
1774527308544,0.008784,0.000488,0.951356,-0.00157467,0.000104368,-0.000268734,33.5503,38.8663,42.9159
1774527308553,0.008296,-0.000244,0.951112,0.00055389,0.00160411,0.00123728,33.451,38.7454,42.9259
1774527308563,0.008784,0.000488,0.950624,-0.000356317,-0.000224646,-0.00118591,33.3716,38.6487,42.9339
1774527308623,0.009028,0.000976,0.9516,0.000850869,7.94306e-05,-0.00026508,33.4537,38.7114,42.8535
1774527308683,0.00976,0.000244,0.950136,-6.43297e-05,7.8097e-05,3.96741e-05,33.3066,38.7671,43.0272
1774527308744,0.00976,0.000732,0.95038,0.00143825,0.000377085,3.90073e-05,33.3625,38.8341,43.0542
1774527308753,0.009028,-0,0.952088,0.00201467,7.0449e-05,-0.00176344,33.4072,38.8877,43.0757
1774527308762,0.00976,0.000488,0.950136,0.00107992,-0.000531334,-0.000832908,33.4429,38.9305,43.093
1774527308822,0.010004,0.001464,0.949892,0.000761467,-0.000222106,-0.00081891,33.4491,38.836,42.992
1774527308883,0.009516,-0.000732,0.950624,0.00044837,0.000982821,-0.00110545,33.5157,38.8164,42.7516
1774527308944,0.00976,0.000732,0.949892,-0.000760363,0.000365708,-0.000185969,33.597,38.9127,42.6405
1774527308953,0.008296,0.000976,0.948672,-0.00164848,-0.000241037,-0.000483143,33.662,38.9898,42.5516
1774527309013,0.007808,0.000732,0.951112,-0.00162078,-0.000837587,0.00132677,33.6916,38.917,42.5169
1774527309073,0.009272,-0,0.950136,-0.00129324,0.000677988,-0.000497322,33.5809,38.9316,42.7327
1774527309133,0.009272,0.000732,0.949892,0.000530294,6.59935e-05,0.000712234,33.5371,38.9153,42.631
1774527309193,0.00976,0.000732,0.948916,0.000821681,-0.000535715,-0.00110153,33.5357,38.8238,42.4152
1774527309203,0.008784,0.000732,0.948672,0.00170877,0.00187568,-0.00078272,33.5345,38.7507,42.2425
1774527309263,0.008784,0.000244,0.94794,0.00168005,0.000642963,-0.000469266,33.4664,38.7201,42.0596
1774527309323,0.009272,0.000976,0.95038,-0.000149982,0.000932451,0.000439519,33.4791,38.5781,42.3669
1774527309383,0.00854,0.000488,0.949648,0.000753437,0.00181768,0.000732432,33.4277,38.4757,42.4951
1774527309443,0.008296,0.000244,0.94916,-0.00136132,-0.00151616,-0.000781375,33.4314,38.4666,42.4913
1774527309503,0.010248,-0.000244,0.950624,0.00136425,1.08145e-05,0.000432955,33.4903,38.3864,42.5106
1774527309563,0.008052,0.000732,0.951112,0.000140126,0.000911526,0.00132658,33.739,38.3672,42.6661
1774527309623,0.008296,0.000976,0.949892,0.00043807,0.000595912,-0.000497515,33.5796,38.4525,42.7905
1774527309683,0.009272,-0,0.94916,-0.00137109,0.00208739,0.000411745,33.5585,38.6608,42.6576
1774527309692,0.010004,-0.000244,0.948184,-0.00194864,0.000250515,0.000404825,33.5416,38.8275,42.5513
1774527309701,0.008296,-0,0.948428,-0.000414397,0.000246305,0.00069832,33.5281,38.9608,42.4662
1774527309761,0.010492,0.000488,0.948428,-0.00100803,-0.00216023,-0.000214314,33.6853,38.8602,42.2862
1774527309821,0.007808,0.000732,0.949892,-0.000991089,0.000278473,-0.000511012,33.671,38.8918,42.5397
1774527309881,0.010248,0.000488,0.949648,-0.000373833,-2.65054e-05,0.000999073,33.7436,38.9058,42.8742
1774527309941,0.009516,0.000488,0.950136,0.00113395,-0.000326358,-0.000218915,33.7401,38.7323,42.7582
1774527309951,0.009028,0.000732,0.9516,0.00111489,-0.000320874,0.077262,33.7373,38.5934,42.6653
1774527310011,0.010248,0.000732,0.949404,-0.00100594,-0.000916079,-0.00211436,33.5502,38.5943,42.7787
1774527310071,0.00854,0.000732,0.949648,-0.000989038,-0.000300083,-0.00147822,33.6134,38.6343,42.9869
1774527310131,0.009516,0.000732,0.950868,0.000529081,-0.00119594,-0.00115308,33.4567,38.6438,42.6999
1774527310141,0.010736,0.000732,0.949648,-0.00128161,-0.00207674,-0.0020346,33.3314,38.6514,42.4704
1774527310150,0.008784,-0,0.948184,-0.00126007,0.000360563,-0.000799204,33.2311,38.6576,42.2867
1774527310212,0.00976,-0,0.95038,-0.000638291,0.000654802,-0.000485473,33.3413,38.6344,42.0053
1774527310272,0.008296,0.000488,0.94916,0.00177483,4.31985e-05,-0.00257941,33.3174,38.7336,42.5755
1774527310285,0.009272,-0.000976,0.949404,-0.000357093,0.000943366,-0.000734262,33.2983,38.8128,43.0316
1774527310344,0.010004,0.001464,0.948184,0.000549807,-0.00207548,-0.000721921,33.2551,38.7083,42.8785
1774527310405,0.00976,0.000244,0.951112,0.000540566,-0.0017403,-0.000709788,33.2485,38.7086,42.8652
1774527310465,0.008296,0.000732,0.949648,-0.000369417,0.00189255,-0.00249965,33.2096,38.7649,42.6557
1774527310525,0.009516,0.000732,0.949892,-0.0027656,-0.00114226,-0.00185704,33.3297,38.8099,42.5358
1774527310585,0.00976,0.062464,0.949404,0.000288724,-0.00205855,-0.00246791,33.2297,38.8459,42.5966
1774527310644,0.010248,0.000244,0.950868,0.000594156,0.00130121,-0.00124618,33.2114,38.7011,42.5193
1774527310705,0.009272,0.000488,0.949404,-1.64281e-05,-0.00112306,-0.00152553,33.1743,38.6917,42.6674
1774527310715,0.008052,-0,0.949648,0.00148534,-0.00110418,-0.076875,33.1446,38.6842,42.9064
1774527310775,0.00854,0.000976,0.951356,0.00116008,0.000415873,0.00039272,33.1769,38.8013,43.0835
1774527310834,0.009516,0.000488,0.949404,0.000239686,0.00130978,-0.000514778,33.2139,38.6991,43.0796
1774527310893,0.00854,0.000244,0.95038,-0.00186644,0.000386871,0.000394772,33.1091,38.6509,42.8609
1774527310953,0.008784,0.00122,0.949892,0.000867625,-0.000820827,-0.000813061,33.2325,38.5563,43.0247
1774527311012,0.010004,-0,0.94916,0.000853043,9.38661e-05,-0.00139999,33.2248,38.5646,42.719
1774527311022,0.010004,0.000244,0.94794,0.000238107,-0.00110891,0.000125032,33.1235,38.4649,42.4744
1774527311082,0.009516,0.000732,0.950624,0.000534405,-0.000789974,0.00192473,33.1544,38.4747,42.4607
1774527311142,0.010492,0.000488,0.951844,0.000825722,0.0007248,0.000390881,33.3079,38.4154,42.6402
1774527311201,0.01098,-0.000244,0.9516,0.000211245,0.000712618,0.000684611,33.1899,38.3231,42.7837
1774527311260,0.008296,0.000976,0.950624,-0.000693202,0.000100043,-0.00202959,33.1795,38.3333,42.7754
1774527311319,0.00976,0.000976,0.950868,0.000219346,-0.00170344,0.00100752,33.2496,38.5094,43.0067
1774527311379,0.00976,0.000732,0.951356,-0.000685239,-0.00077391,8.9684e-05,33.2385,38.4991,42.9174
1774527311388,0.009028,-0.000732,0.950624,-0.00127432,0.00134119,0.000989075,33.2296,38.4909,42.8459
1774527311397,0.008784,-0.000488,0.950624,-0.000652305,0.00282015,0.0772485,33.2225,38.4843,42.7887
1774527311456,0.011224,0.000732,0.950624,-0.000341043,0.000970952,-0.000325842,33.4128,38.7311,42.883
1774527311515,0.011224,0.000976,0.9516,-0.00063561,0.000354037,-0.00122126,33.3522,38.7549,43.076
1774527311574,0.00976,0.000976,0.951112,-0.00212642,0.000648387,4.5888e-07,33.539,38.8019,42.9616
1774527311634,0.010004,0.000488,0.951844,-0.00118979,0.00063749,-0.00150105,33.6044,38.6211,42.8533
1774527311693,0.00854,0.000732,0.952576,0.000632004,0.00152767,-0.00177612,33.6175,38.5605,43.0214
1774527311752,0.00854,0.000732,0.95038,-0.000579815,5.02914e-07,-0.00024477,33.6,38.6296,43.0019
1774527311761,0.010736,-0,0.952088,-0.00147097,4.95464e-07,0.000960541,33.586,38.6289,42.8911
1774527311770,0.00976,0.000244,0.951112,0.00035555,-0.00090041,-0.0002568,33.502,38.6283,42.8025
1774527311829,0.00854,0.000976,0.952576,-0.000851623,0.00301862,-0.000552783,33.4516,38.6054,42.8604
1774527311889,0.010004,0.000488,0.951844,-0.00263911,-3.51109e-05,-0.00264559,33.4561,38.5592,42.8759
1774527311948,0.008052,0.00122,0.952088,-0.000192357,-0.00213662,-0.000799328,33.2357,38.5221,43.0983
1774527312007,0.009028,-0,0.951844,0.000111175,1.38953e-06,-0.00318829,33.2553,38.4813,43.2595
1774527312066,0.00976,0.000732,0.952576,0.0010102,0.000902262,-0.00193351,33.2991,38.7006,43.2148
1774527312126,0.008784,-0,0.953064,-0.00231007,-1.37985e-05,-0.00100011,33.2725,38.7641,43.0306
1774527312134,0.010248,0.000244,0.951844,-0.00137034,-0.000313867,-0.000683005,33.2512,38.8149,42.8833
1774527312143,0.009516,0.000976,0.9516,-0.000446415,0.00119291,-0.00217302,33.2341,38.8555,42.7654
1774527312152,0.00976,0.000976,0.9516,-0.000739212,0.00117286,-0.0018362,33.2205,38.888,43.388
1774527312212,0.007808,0.000244,0.952088,-0.00192798,0.000552546,-0.00150504,33.2264,39.0204,43.6844
1774527312271,0.010004,-0.061732,0.952088,0.000820909,-5.83194e-05,-0.000894176,33.2647,38.9975,43.8767
1774527312331,0.00854,0.000732,0.951112,-0.00223342,-0.000669185,2.21214e-05,33.1554,39.052,43.8262
1774527312391,0.009516,0.000488,0.9516,-0.00159528,0.00114386,-0.00178005,32.9279,39.0788,44.0265
1774527312450,0.00854,0.000732,0.95038,0.000233325,0.000223733,5.16664e-05,32.8187,39.0723,44.2092
1774527312459,0.008784,-0,0.952332,-0.000371195,-0.00158183,-0.0014507,32.9218,39.1678,44.067
1774527312468,0.008784,0.00122,0.951356,0.00083624,-0.00185554,-0.00232721,33.0042,39.2442,43.9532
1774527312528,0.009028,-0,0.951112,-7.87126e-05,-0.000623159,0.000414592,33.0534,39.0758,43.8761
1774527312587,0.00854,0.00122,0.952576,-7.73896e-05,0.00088881,-0.000793573,33.1375,39.1258,43.6773
